Folder: 2025kps_RamanSpectroscopy/experimental data

Note: experimental data/ws2 1 raman.txt
FILETYPE=RAMAN SPECTRUM
DATETIME=2025-07-28 12:44:21
CCD=Artemis
CCDMODEL=Atik428EX
LASER=532
TEMPERATURE=0
IT=4000ms
BINNING_START=761
BINNING_LENGTH=10
MODEL=XperRAM-S
SPECTROMETER=XPE200
GRATING=1800
STARTFROM=-50
RSRANGE=726.503234371725
SPECTRATAKEN=1
DISPLAYMODE=LATEST
TYPE=RamanShift
XUNITS=1/cm
LEN=1931
XYDATA=
-468.195,790
-466.532,717
-464.869,806
-463.206,694
-461.544,750
-459.882,704
-458.220,743
-456.558,714
-454.897,726
-453.236,759
-451.575,738
-449.915,714
-448.255,815
-446.595,799
-444.935,728
-443.276,756
-441.617,810
-439.958,746
-438.299,811
-436.641,766
-434.983,807
-433.326,797
-431.668,770
-430.011,816
-428.354,809
-426.698,759
-425.042,787
-423.386,922
-421.730,613
-420.074,821
-418.419,841
-416.764,878
-415.110,1308
-413.456,2043
-411.802,2077
-410.148,1354
-408.494,945
-406.841,901
-405.188,934
-403.536,770
-401.883,734
-400.231,812
-398.579,808
-396.928,795
-395.277,739
-393.626,867
-391.975,812
-390.325,788
-388.674,815
-387.025,810
-385.375,846
-383.726,742
-382.077,722
-380.428,720
-378.780,891
-377.131,760
-375.484,870
-373.836,821
-372.189,943
-370.542,852
-368.895,769
-367.248,759
-365.602,862
-363.956,772
-362.311,819
-360.665,916
-359.020,916
-357.375,853
-355.731,927
-354.087,959
-352.443,1067
-350.799,1342
-349.156,1889
-347.512,2068
-345.870,2036
-344.227,2383
-342.585,2547
-340.943,2103
-339.301,1764
-337.660,1570
-336.018,1427
-334.378,1306
-332.737,1152
-331.097,1231
-329.457,1175
-327.817,1069
-326.177,1093
-324.538,962
-322.899,1023
-321.261,1162
-319.622,1074
-317.984,1194
-316.346,1357
-314.709,1353
-313.072,1462
-311.435,1104
-309.798,1111
-308.161,1007
-306.525,972
-304.889,1182
-303.254,991
-301.619,1093
-299.984,1018
-298.349,1050
-296.714,891
-295.080,1013
-293.446,1041
-291.813,1038
-290.180,1093
-288.546,1017
-286.914,1095
-285.281,1070
-283.649,1056
-282.017,884
-280.385,975
-278.754,956
-277.123,1107
-275.492,905
-273.862,1074
-272.231,1022
-270.602,1049
-268.972,1041
-267.342,1165
-265.713,1056
-264.085,1005
-262.456,1000
-260.828,1113
-259.200,1088
-257.572,1092
-255.945,1103
-254.317,1062
-252.691,1012
-251.064,1097
-249.438,1028
-247.812,1008
-246.186,1027
-244.560,1161
-242.935,1019
-241.310,927
-239.686,1126
-238.061,987
-236.437,1100
-234.814,1107
-233.190,1051
-231.567,1149
-229.944,1089
-228.321,1207
-226.699,1256
-225.077,1147
-223.455,966
-221.833,1096
-220.212,1032
-218.591,1054
-216.970,965
-215.350,1021
-213.730,1013
-212.110,1166
-210.491,1141
-208.871,1006
-207.252,1131
-205.634,1206
-204.015,1233
-202.397,1231
-200.779,1038
-199.161,1191
-197.544,1106
-195.927,1188
-194.310,1180
-192.694,1372
-191.078,1243
-189.462,1296
-187.846,1234
-186.231,1143
-184.616,1246
-183.001,1319
-181.386,1275
-179.772,1328
-178.158,1281
-176.545,1376
-174.931,1428
-173.318,1381
-171.705,1349
-170.093,1633
-168.480,1466
-166.869,1403
-165.257,1282
-163.645,1212
-162.034,1172
-160.423,1185
-158.813,1228
-157.203,1322
-155.593,1321
-153.983,1160
-152.373,1091
-150.764,1390
-149.155,1193
-147.547,1397

Note: experimental data/ws2 2 raman.txt
FILETYPE=RAMAN SPECTRUM
DATETIME=2025-07-28 12:46:47
CCD=Artemis
CCDMODEL=Atik428EX
LASER=532
TEMPERATURE=0
IT=4000ms
BINNING_START=761
BINNING_LENGTH=10
MODEL=XperRAM-S
SPECTROMETER=XPE200
GRATING=1800
STARTFROM=-50
RSRANGE=726.503234371725
SPECTRATAKEN=1
DISPLAYMODE=LATEST
TYPE=RamanShift
XUNITS=1/cm
LEN=1931
XYDATA=
-468.195,686
-466.532,805
-464.869,780
-463.206,682
-461.544,786
-459.882,742
-458.220,717
-456.558,746
-454.897,694
-453.236,711
-451.575,788
-449.915,806
-448.255,653
-446.595,721
-444.935,756
-443.276,728
-441.617,740
-439.958,738
-438.299,683
-436.641,742
-434.983,805
-433.326,705
-431.668,772
-430.011,838
-428.354,795
-426.698,763
-425.042,851
-423.386,850
-421.730,725
-420.074,693
-418.419,817
-416.764,924
-415.110,1194
-413.456,1859
-411.802,1895
-410.148,1254
-408.494,935
-406.841,887
-405.188,800
-403.536,790
-401.883,776
-400.231,912
-398.579,758
-396.928,819
-395.277,771
-393.626,881
-391.975,766
-390.325,834
-388.674,791
-387.025,794
-385.375,784
-383.726,692
-382.077,848
-380.428,858
-378.780,817
-377.131,802
-375.484,792
-373.836,891
-372.189,821
-370.542,790
-368.895,813
-367.248,833
-365.602,878
-363.956,850
-362.311,803
-360.665,800
-359.020,976
-357.375,783
-355.731,829
-354.087,851
-352.443,951
-350.799,1290
-349.156,1667
-347.512,1546
-345.870,1842
-344.227,2057
-342.585,2189
-340.943,1801
-339.301,1598
-337.660,1354
-336.018,1175
-334.378,1214
-332.737,1086
-331.097,1061
-329.457,1061
-327.817,1047
-326.177,1085
-324.538,1010
-322.899,991
-321.261,1068
-319.622,1172
-317.984,1072
-316.346,1267
-314.709,1105
-313.072,1050
-311.435,1042
-309.798,1065
-308.161,977
-306.525,1006
-304.889,890
-303.254,937
-301.619,969
-299.984,988
-298.349,840
-296.714,929
-295.080,1029
-293.446,1015
-291.813,1056
-290.180,1097
-288.546,1091
-286.914,1121
-285.281,1154
-283.649,958
-282.017,1036
-280.385,911
-278.754,892
-277.123,989
-275.492,955
-273.862,1198
-272.231,1040
-270.602,939
-268.972,909
-267.342,1005
-265.713,1084
-264.085,957
-262.456,984
-260.828,931
-259.200,922
-257.572,968
-255.945,1131
-254.317,948
-252.691,1051
-251.064,1054
-249.438,1012
-247.812,993
-246.186,1088
-244.560,994
-242.935,1091
-241.310,1046
-239.686,1032
-238.061,1002
-236.437,1093
-234.814,1030
-233.190,1113
-231.567,935
-229.944,1146
-228.321,1210
-226.699,1354
-225.077,980
-223.455,1156
-221.833,1098
-220.212,1142
-218.591,1009
-216.970,1005
-215.350,989
-213.730,1054
-212.110,1007
-210.491,1123
-208.871,1071
-207.252,1095
-205.634,1058
-204.015,1108
-202.397,1123
-200.779,929
-199.161,1019
-197.544,1128
-195.927,958
-194.310,1021
-192.694,1022
-191.078,1120
-189.462,1203
-187.846,1199
-186.231,1296
-184.616,1147
-183.001,1150
-181.386,1206
-179.772,1208
-178.158,1416
-176.545,1437
-174.931,1195
-173.318,1191
-171.705,1349
-170.093,1315
-168.480,1238
-166.869,1152
-165.257,1123
-163.645,1333
-162.034,1160
-160.423,1047
-158.813,1133
-157.203,1224
-155.593,1183
-153.983,1135
-152.373,1242
-150.764,1050
-149.155,1137
-147.547,1197
-145.938,1131
-1

File: mos2 1 raman.txt
FILETYPE=RAMAN SPECTRUM
DATETIME=2025-07-28 12:31:01
CCD=Artemis
CCDMODEL=Atik428EX
LASER=532
TEMPERATURE=0
IT=4000ms
BINNING_START=761
BINNING_LENGTH=10
MODEL=XperRAM-S
SPECTROMETER=XPE200
GRATING=1800
STARTFROM=-50
RSRANGE=726.503
SPECTRATAKEN=1
DISPLAYMODE=LATEST
TYPE=RamanShift
XUNITS=1/cm
LEN=1931
XYDATA=
-468.195,720
-456.558,734
-444.935,748
-433.326,699
-421.730,731
-410.148,728
-398.579,1090
-387.025,800
-375.484,1458
-363.956,786
-352.443,855
-340.943,703
-329.457,875
-317.984,858
-306.525,844
-295.080,783
-283.649,802
-272.231,826
-260.828,835
-249.438,850
-238.061,936
-226.699,917
-215.350,894
-204.015,946
-192.694,936
-181.386,1147
-170.093,1117
-158.813,1186
-147.547,1242
-136.294,1275
-125.056,1383
-113.831,1499
-102.620,1597
-91.423,2703
-80.240,2614
-69.071,1832
-57.915,2377
-46.773,2160
-35.645,2142
-24.531,3853
-13.431,6639
-2.344,65535
8.728,27707
19.787,5387
30.832,2800
41.863,2378
52.880,2149
63.884,2112
74.873,2330
85.849,2029
96.811,1908
107.758,1653
118.693,1506
129.613,1094
140.519,1369
151.412,1145
162.290,1246
173.155,1149
184.006,1317
194.843,1153
205.666,1077
216.475,1002
227.270,1072
238.051,1078
248.819,855
259.572,984
270.312,1001
281.038,1076
291.750,801
302.448,953
313.132,995
323.802,904
334.459,963
345.101,962
355.729,834
366.344,895
376.945,1152
387.532,994
398.104,962
408.663,5575
419.209,1001
429.740,1039
440.257,1066
450.760,1050
461.250,1024
471.725,983
482.187,836
492.635,970
503.068,995
513.488,929
523.894,916
534.286,921
544.664,998
555.029,895
565.379,986
575.715,982
586.038,1060
596.347,989
606.641,876
616.922,883
627.189,967
637.442,1010
647.681,845
657.906,918
668.117,998
678.315,967
688.498,825
698.668,865
708.823,917
718.965,923
729.093,893
739.207,890
749.307,947
759.393,947
769.465,903
779.523,1053
789.568,868
799.598,902
809.615,944
819.618,959
829.607,838
839.581,823
849.543,954
859.490,947
869.423,964
879.343,947
889.248,952
899.140,845
909.018,915
918.881,838
928.731,859
938.568,885
948.390,811
958.198,896
967.993,942
977.774,903
987.540,760
997.293,942
1007.033,808
1016.758,960
1026.469,885
1036.167,877
1045.850,904
1055.520,855
1065.176,820
1074.818,882
1084.447,789
1094.061,796
1103.662,866
1113.249,865
1122.822,814
1132.381,853
1141.926,856
1151.458,825
1160.975,899
1170.479,926
1179.969,952
1189.446,844
1198.908,810
1208.357,854
1217.791,871
1227.212,844
1236.620,828
1246.013,869
1255.393,923
1264.759,849
1274.111,844
1283.449,799
1292.773,823
1302.084,823
1311.381,860
1320.664,838
1329.934,895
1339.189,856
1348.431,906
1357.659,979
1366.874,911
1376.074,871
1385.261,974
1394.434,920
1403.594,792
1412.739,861
1421.871,787
1430.989,801
1440.094,852
1449.184,852
1458.261,787
1467.325,842
1476.374,785
1485.410,862
1494.432,810
1503.441,910
1512.436,944
1521.417,810
1530.384,831
1539.338,950
1548.278,918
1557.204,971
1566.117,859
1575.016,919
1583.901,866
1592.773,808
1601.631,792
1610.475,801
1619.306,688
1628.123,869
1636.926,810
1645.716,830
1654.492,788
1663.254,817
1672.003,868
1680.738,741
1689.460,787
1698.168,786
1706.862,864
1715.543,838
1724.210,726
1732.864,779
1741.504,688
1750.130,779
1758.743,826
1767.342,634
1775.928,808
1784.500,742
1793.058,820
1801.603,755
1810.134,766
1818.652,840
1827.157,916
1835.647,690
1844.124,817
1852.588,762
1861.038,879
1869.475,808
1877.898,786
1886.307,737
1894.703,731
1903.086,730
1911.455,730
1919.810,692
1928.152,737
1936.481,676
1944.795,751
1953.097,670
1961.385,758
1969.660,697
1977.921,667
1986.168,713
1994.402,643
2002.623,652
2010.830,708
2019.024,702
2027.204,787
2035.371,651
2043.525,692
2051.665,588
2059.791,671
2067.905,657
2076.004,708
2084.091,683
2092.164,725
2100.223,723
2108.269,722
2116.302,648
2124.322,700
2132.328,594
2140.320,666
2148.299,603
2156.265,655
2164.218,613
2172.157,600
2180.083,682
2187.995,631
2195.894,659
2203.780,649
2211.652,635
2217.267,582

File: mos2 2 raman.txt
FILETYPE=RAMAN SPECTRUM
DATETIME=2025-07-28 12:37:37
CCD=Artemis
CCDMODEL=Atik428EX
LASER=532
TEMPERATURE=0
IT=4000ms
BINNING_START=761
BINNING_LENGTH=10
MODEL=XperRAM-S
SPECTROMETER=XPE200
GRATING=1800
STARTFROM=-50
RSRANGE=726.503
SPECTRATAKEN=1
DISPLAYMODE=LATEST
TYPE=RamanShift
XUNITS=1/cm
LEN=1931
XYDATA=
-468.195,686
-456.558,720
-444.935,722
-433.326,831
-421.730,833
-410.148,796
-398.579,2826
-387.025,924
-375.484,2348
-363.956,842
-352.443,811
-340.943,763
-329.457,831
-317.984,826
-306.525,890
-295.080,891
-283.649,1014
-272.231,826
-260.828,887
-249.438,849
-238.061,914
-226.699,868
-215.350,1002
-204.015,889
-192.694,981
-181.386,1055
-170.093,1126
-158.813,1021
-147.547,1019
-136.294,1182
-125.056,1204
-113.831,1142
-102.620,1351
-91.423,1785
-80.240,1936
-69.071,1738
-57.915,1792
-46.773,1743
-35.645,1774
-24.531,2465
-13.431,4255
-2.344,65535
8.728,17103
19.787,3506
30.832,2340
41.863,2061
52.880,1814
63.884,1792
74.873,2000
85.849,2240
96.811,1470
107.758,1563
118.693,1249
129.613,1237
140.519,1270
151.412,1383
162.290,1158
173.155,1038
184.006,1414
194.843,1209
205.666,1059
216.475,1054
227.270,1082
238.051,1074
248.819,1078
259.572,1054
270.312,1053
281.038,1002
291.750,1038
302.448,975
313.132,1171
323.802,1147
334.459,1098
345.101,1038
355.729,1152
366.344,1178
376.945,1715
387.532,1334
398.104,1497
408.663,10406
419.209,1364
429.740,1221
440.257,1362
450.760,1554
461.250,1267
471.725,1054
482.187,906
492.635,1042
503.068,996
513.488,1390
523.894,1820
534.286,1126
544.664,1120
555.029,1092
565.379,1184
575.715,1117
586.038,1040
596.347,1244
606.641,1171
616.922,1177
627.189,1055
637.442,1093
647.681,1009
657.906,999
668.117,1015
678.315,953
688.498,966
698.668,1013
708.823,899
718.965,982
729.093,1050
739.207,1152
749.307,1224
759.393,1050
769.465,1022
779.523,1096
789.568,1035
799.598,934
809.615,1058
819.618,1050
829.607,1084
839.581,950
849.543,978
859.490,961
869.423,988
879.343,964
889.248,1118
899.140,935
909.018,917
918.881,882
928.731,1075
938.568,1071
948.390,1003
958.198,1002
967.993,1045
977.774,991
987.540,864
997.293,901
1007.033,934
1016.758,965
1026.469,889
1036.167,924
1045.850,863
1055.520,874
1065.176,890
1074.818,966
1084.447,837
1094.061,1002
1103.662,907
1113.249,855
1122.822,796
1132.381,797
1141.926,950
1151.458,919
1160.975,1001
1170.479,863
1179.969,993
1189.446,852
1198.908,949
1208.357,860
1217.791,926
1227.212,980
1236.620,879
1246.013,871
1255.393,818
1264.759,804
1274.111,932
1283.449,967
1292.773,882
1302.084,967
1311.381,931
1320.664,892
1329.934,934
1339.189,887
1348.431,972
1357.659,955
1366.874,859
1376.074,930
1385.261,900
1394.434,908
1403.594,982
1412.739,879
1421.871,864
1430.989,914
1440.094,904
1449.184,832
1458.261,865
1467.325,906
1476.374,866
1485.410,906
1494.432,895
1503.441,944
1512.436,922
1521.417,919
1530.384,812
1539.338,851
1548.278,891
1557.204,880
1566.117,874
1575.016,837
1583.901,981
1592.773,886
1601.631,796
1610.475,759
1619.306,736
1628.123,822
1636.926,863
1645.716,807
1654.492,822
1663.254,764
1672.003,877
1680.738,855
1689.460,826
1698.168,805
1706.862,741
1715.543,735
1724.210,912
1732.864,832
1741.504,813
1750.130,814
1758.743,922
1767.342,786
1775.928,814
1784.500,831
1793.058,824
1801.603,782
1810.134,770
1818.652,773
1827.157,814
1835.647,730
1844.124,856
1852.588,782
1861.038,795
1869.475,882
1877.898,801
1886.307,712
1894.703,807
1903.086,806
1911.455,780
1919.810,786
1928.152,814
1936.481,746
1944.795,720
1953.097,756
1961.385,765
1969.660,757
1977.921,746
1986.168,791
1994.402,749
2002.623,767
2010.830,670
2019.024,690
2027.204,860
2035.371,723
2043.525,648
2051.665,636
2059.791,652
2067.905,630
2076.004,672
2084.091,758
2092.164,738
2100.223,642
2108.269,684
2116.302,567
2124.322,628
2132.328,654
2140.320,638
2148.299,685
2156.265,641
2164.218,632
2172.157,672
2180.083,666
2187.995,697
2195.894,575
2203.780,641
2211.652,675
2217.267,623